consent_resp.keys,consent_resp.rt,participant,session,Age,date,expName,psychopyVersion,OS,frameRate,overview_resp.keys,overview_resp.rt,Pracstudy_resp.keys,Pracstudy_resp.rt,IndoorOutdoor_resp.keys,IndoorOutdoor_resp.corr,IndoorOutdoor_resp.rt,pracstudy_loop.thisRepN,pracstudy_loop.thisTrialN,pracstudy_loop.thisN,pracstudy_loop.thisIndex,pracstudy_loop.ran,scene_pracstudy,scene_pracstudy_corr,probe,phase,practest_instruct_resp.keys,practest_instruct_resp.rt,practest_instruct_loop.thisRepN,practest_instruct_loop.thisTrialN,practest_instruct_loop.thisN,practest_instruct_loop.thisIndex,practest_instruct_loop.ran,Practest_instruct_resp2.keys,Practest_instruct_resp2.rt,OldNew_resp.keys,OldNew_resp.corr,OldNew_resp.rt,PracTest_RK_resp.keys,practest_loop.thisRepN,practest_loop.thisTrialN,practest_loop.thisN,practest_loop.thisIndex,practest_loop.ran,scene_practest,scene_practest_corr,PracTest_RK_resp.rt,PracEnd_resp.keys,PracEnd_resp.rt,StartExp_resp.keys,StartExp_resp.rt,StudyInstruct_resp.keys,StudyInstruct_resp.rt,Study_IndoorOutdoor_resp.keys,Study_IndoorOutdoor_resp.corr,Study_IndoorOutdoor_resp.rt,study_loop.thisRepN,study_loop.thisTrialN,study_loop.thisN,study_loop.thisIndex,study_loop.ran,scene_study,scene_study_corr,block,studyscene_number,TestInstruct_resp.keys,TestInstruct_resp.rt,Test_OldNew_resp.keys,Test_OldNew_resp.corr,Test_OldNew_resp.rt,Test_RK_resp.keys,test_loop.thisRepN,test_loop.thisTrialN,test_loop.thisN,test_loop.thisIndex,test_loop.ran,scene_test,scene_test_corr,testscene_number,Test_RK_resp.rt,End_Exp_resp.keys,End_Exp_resp.rt
y,2.0869,841215,1,Young,2023-11-18_21h06.25.482,Scene_Recog_Nov10,2022.2.2,MacIntel,120.0048002,,,,,,,,,,,,,,,,,,,,,,,,,,,,,,,,,,,,,,,,,,,,,,,,,,,,,,,,,,,,,,,,,,,,,,,,
,,841215,1,Young,2023-11-18_21h06.25.482,Scene_Recog_Nov10,2022.2.2,MacIntel,120.0048002,space,0.7335,,,,,,,,,,,,,,,,,,,,,,,,,,,,,,,,,,,,,,,,,,,,,,,,,,,,,,,,,,,,,,,,,,,,,,
,,841215,1,Young,2023-11-18_21h06.25.482,Scene_Recog_Nov10,2022.2.2,MacIntel,120.0048002,,,space,1.3297,,,,,,,,,,,,,,,,,,,,,,,,,,,,,,,,,,,,,,,,,,,,,,,,,,,,,,,,,,,,,,,,,,,,
,,841215,1,Young,2023-11-18_21h06.25.482,Scene_Recog_Nov10,2022.2.2,MacIntel,120.0048002,,,,,i,1,1.3917,0,0,0,2,1,prac_stimuli/pracscene/bar_V1.jpg,i,foil,pracstudy,,,,,,,,,,,,,,,,,,,,,,,,,,,,,,,,,,,,,,,,,,,,,,,,,,,,,,,,
,,841215,1,Young,2023-11-18_21h06.25.482,Scene_Recog_Nov10,2022.2.2,MacIntel,120.0048002,,,,,o,1,1.032,0,1,1,4,1,prac_stimuli/pracscene/basketballschool_V1.jpg,o,target,pracstudy,,,,,,,,,,,,,,,,,,,,,,,,,,,,,,,,,,,,,,,,,,,,,,,,,,,,,,,,
,,841215,1,Young,2023-11-18_21h06.25.482,Scene_Recog_Nov10,2022.2.2,MacIntel,120.0048002,,,,,o,1,0.8653,0,2,2,0,1,prac_stimuli/pracscene/africaslums_V2.jpg,o,lure,pracstudy,,,,,,,,,,,,,,,,,,,,,,,,,,,,,,,,,,,,,,,,,,,,,,,,,,,,,,,,
,,841215,1,Young,2023-11-18_21h06.25.482,Scene_Recog_Nov10,2022.2.2,MacIntel,120.0048002,,,,,i,1,0.4918,0,3,3,5,1,prac_stimuli/pracscene/bath_V1.jpg,i,lure,pracstudy,,,,,,,,,,,,,,,,,,,,,,,,,,,,,,,,,,,,,,,,,,,,,,,,,,,,,,,,
,,841215,1,Young,2023-11-18_21h06.25.482,Scene_Recog_Nov10,2022.2.2,MacIntel,120.0048002,,,,,o,1,0.6264,0,4,4,3,1,prac_stimuli/pracscene/baseball_V1.jpg,o,foil,pracstudy,,,,,,,,,,,,,,,,,,,,,,,,,,,,,,,,,,,,,,,,,,,,,,,,,,,,,,,,
,,841215,1,Young,2023-11-18_21h06.25.482,Scene_Recog_Nov10,2022.2.2,MacIntel,120.0048002,,,,,o,1,0.8503,0,5,5,1,1,prac_stimuli/pracscene/air_V1.jpg,o,target,pracstudy,,,,,,,,,,,,,,,,,,,,,,,,,,,,,,,,,,,,,,,,,,,,,,,,,,,,,,,,
,,841215,1,Young,2023-11-18_21h06.25.482,Scene_Recog_Nov10,2022.2.2,MacIntel,120.0048002,,,,,,,,,,,,,,,,,right,1.2113,0,0,0,0,1,,,,,,,,,,,,,,,,,,,,,,,,,,,,,,,,,,,,,,,,,,,,,,,,,
,,841215,1,Young,2023-11-18_21h06.25.482,Scene_Recog_Nov10,2022.2.2,MacIntel,120.0048002,,,,,,,,,,,,,,,,,right,0.2775,1,0,1,0,1,,,,,,,,,,,,,,,,,,,,,,,,,,,,,,,,,,,,,,,,,,,,,,,,,
,,841215,1,Young,2023-11-18_21h06.25.482,Scene_Recog_Nov10,2022.2.2,MacIntel,120.0048002,,,,,,,,,,,,,,,,,right,0.1237,2,0,2,0,1,,,,,,,,,,,,,,,,,,,,,,,,,,,,,,,,,,,,,,,,,,,,,,,,,
,,841215,1,Young,2023-11-18_21h06.25.482,Scene_Recog_Nov10,2022.2.2,MacIntel,120.0048002,,,,,,,,,,,,,,,,,right,0.1289,3,0,3,0,1,,,,,,,,,,,,,,,,,,,,,,,,,,,,,,,,,,,,,,,,,,,,,,,,,
,,841215,1,Young,2023-11-18_21h06.25.482,Scene_Recog_Nov10,2022.2.2,MacIntel,120.0048002,,,,,,,,,,,,,,,,,right,0.1144,4,0,4,0,1,,,,,,,,,,,,,,,,,,,,,,,,,,,,,,,,,,,,,,,,,,,,,,,,,
,,841215,1,Young,2023-11-18_21h06.25.482,Scene_Recog_Nov10,2022.2.2,MacIntel,120.0048002,,,,,,,,,,,,,,,,,right,0.2445,5,0,5,0,1,,,,,,,,,,,,,,,,,,,,,,,,,,,,,,,,,,,,,,,,,,,,,,,,,
,,841215,1,Young,2023-11-18_21h06.25.482,Scene_Recog_Nov10,2022.2.2,MacIntel,120.0048002,,,,,,,,,,,,,,,,,right,0.191,6,0,6,0,1,,,,,,,,,,,,,,,,,,,,,,,,,,,,,,,,,,,,,,,,,,,,,,,,,
,,841215,1,Young,2023-11-18_21h06.25.482,Scene_Recog_Nov10,2022.2.2,MacIntel,120.0048002,,,,,,,,,,,,,,,,,,,,,,,,space,1.2289,,,,,,,,,,,,,,,,,,,,,,,,,,,,,,,,,,,,,,,,,,,,,,,
,,841215,1,Young,2023-11-18_21h06.25.482,Scene_Recog_Nov10,2022.2.2,MacIntel,120.0048002,,,,,,,,,,,,,,,target,practest,,,,,,,,,,n,0,2.4359,,0,0,0,1,1,prac_stimuli/pracscene/air_V1.jpg,b,,,,,,,,,,,,,,,,,,,,,,,,,,,,,,,,,,,,
,,841215,1,Young,2023-11-18_21h06.25.482,Scene_Recog_Nov10,2022.2.2,MacIntel,120.0048002,,,,,,,,,,,,,,,foil,practest,,,,,,,,,,n,1,0.7488,,0,1,1,2,1,prac_stimuli/pracscene/brickroad_V1.jpg,n,,,,,,,,,,,,,,,,,,,,,,,,,,,,,,,,,,,,
,,841215,1,Young,2023-11-18_21h06.25.482,Scene_Recog_Nov10,2022.2.2,MacIntel,120.0048002,,,,,,,,,,,,,,,foil,practest,,,,,,,,,,n,1,2.0191,,0,2,2,3,1,prac_stimuli/pracscene/bike_V1.jpg,n,,,,,,,,,,,,,,,,,,,,,,,,,,,,,,,,,,,,
,,841215,1,Young,2023-11-18_21h06.25.482,Scene_Recog_Nov10,2022.2.2,MacIntel,120.0048002,,,,,,,,,,,,,,,lure,practest,,,,,,,,,,b,0,2.1696,r,0,3,3,5,1,prac_stimuli/pracscene/bath_V2.jpg,n,3.237,,,,,,,,,,,,,,,,,,,,,,,,,,,,,,,,,,,
,,841215,1,Young,2023-11-18_21h06.25.482,Scene_Recog_Nov10,2022.2.2,MacIntel,120.0048002,,,,,,,,,,,,,,,lure,practest,,,,,,,,,,b,0,1.5002,k,0,4,4,0,1,prac_stimuli/pracscene/africaslums_V1.jpg,n,0.5174,,,,,,,,,,,,,,,,,,,,,,,,,,,,,,,,,,,
,,841215,1,Young,2023-11-18_21h06.25.482,Scene_Recog_Nov10,2022.2.2,MacIntel,120.0048002,,,,,,,,,,,,,,,target,practest,,,,,,,,,,n,0,2.1614,,0,5,5,4,1,prac_stimuli/pracscene/basketballschool_V1.jpg,b,,,,,,,,,,,,,,,,,,,,,,,,,,,,,,,,,,,,
,,841215,1,Young,2023-11-18_21h06.25.482,Scene_Recog_Nov10,2022.2.2,MacIntel,120.0048002,,,,,,,,,,,,,,,,,,,,,,,,,,,,,,,,,,,,,,space,0.7372,,,,,,,,,,,,,,,,,,,,,,,,,,,,,,,,,
,,841215,1,Young,2023-11-18_21h06.25.482,Scene_Recog_Nov10,2022.2.2,MacIntel,120.0048002,,,,,,,,,,,,,,,,,,,,,,,,,,,,,,,,,,,,,,,,space,0.6286,,,,,,,,,,,,,,,,,,,,,,,,,,,,,,,
,,841215,1,Young,2023-11-18_21h06.25.482,Scene_Recog_Nov10,2022.2.2,MacIntel,120.0048002,,,,,,,,,,,,,,,lure,study,,,,,,,,,,,,,,,,,,,,,,,,,,space,1.9537,o,1,0.9449,0,0,0,0,1,stimuli/scene/barn_V2.jpg,o,3,1,,,,,,,,,,,,,,,,,
,,841215,1,Young,2023-11-18_21h06.25.482,Scene_Recog_Nov10,2022.2.2,MacIntel,120.0048002,,,,,,,,,,,,,,,foil,study,,,,,,,,,,,,,,,,,,,,,,,,,,,,o,1,0.6613,0,1,1,3,1,stimuli/scene/bridge_V2.jpg,o,3,4,,,,,,,,,,,,,,,,,
,,841215,1,Young,2023-11-18_21h06.25.482,Scene_Recog_Nov10,2022.2.2,MacIntel,120.0048002,,,,,,,,,,,,,,,target,study,,,,,,,,,,,,,,,,,,,,,,,,,,,,i,1,0.8194,0,2,2,4,1,stimuli/scene/buffet_V2.jpg,i,3,5,,,,,,,,,,,,,,,,,
,,841215,1,Young,2023-11-18_21h06.25.482,Scene_Recog_Nov10,2022.2.2,MacIntel,120.0048002,,,,,,,,,,,,,,,lure,study,,,,,,,,,,,,,,,,,,,,,,,,,,,,i,1,1.2485,0,3,3,5,1,stimuli/scene/butcher_V2.jpg,i,3,6,,,,,,,,,,,,,,,,,
,,841215,1,Young,2023-11-18_21h06.25.482,Scene_Recog_Nov10,2022.2.2,MacIntel,120.0048002,,,,,,,,,,,,,,,target,study,,,,,,,,,,,,,,,,,,,,,,,,,,,,o,1,0.7475,0,4,4,1,1,stimuli/scene/beach_V1.jpg,o,3,2,,,,,,,,,,,,,,,,,
,,841215,1,Young,2023-11-18_21h06.25.482,Scene_Recog_Nov10,2022.2.2,MacIntel,120.0048002,,,,,,,,,,,,,,,foil,study,,,,,,,,,,,,,,,,,,,,,,,,,,,,i,1,0.6657,0,5,5,2,1,stimuli/scene/bed_V2.jpg,i,3,3,,,,,,,,,,,,,,,,,
,,841215,1,Young,2023-11-18_21h06.25.482,Scene_Recog_Nov10,2022.2.2,MacIntel,120.0048002,,,,,,,,,,,,,,,foil,test,,,,,,,,,,,,,,,,,,,,,,,,,,,,,,,,,,,,,,3,,space,0.829,n,1,0.9057,,0,0,0,3,1,stimuli/scene/cactus_V2.jpg,n,4,,,
,,841215,1,Young,2023-11-18_21h06.25.482,Scene_Recog_Nov10,2022.2.2,MacIntel,120.0048002,,,,,,,,,,,,,,,foil,test,,,,,,,,,,,,,,,,,,,,,,,,,,,,,,,,,,,,,,3,,,,n,1,0.5426,,0,1,1,2,1,stimuli/scene/cattlefarm_V2.jpg,n,3,,,
,,841215,1,Young,2023-11-18_21h06.25.482,Scene_Recog_Nov10,2022.2.2,MacIntel,120.0048002,,,,,,,,,,,,,,,lure,test,,,,,,,,,,,,,,,,,,,,,,,,,,,,,,,,,,,,,,3,,,,b,0,1.1344,k,0,2,2,5,1,stimuli/scene/butcher_V1.jpg,n,6,0.6079,,
,,841215,1,Young,2023-11-18_21h06.25.482,Scene_Recog_Nov10,2022.2.2,MacIntel,120.0048002,,,,,,,,,,,,,,,lure,test,,,,,,,,,,,,,,,,,,,,,,,,,,,,,,,,,,,,,,3,,,,b,0,1.8697,k,0,3,3,0,1,stimuli/scene/barn_V1.jpg,n,1,1.1614,,
,,841215,1,Young,2023-11-18_21h06.25.482,Scene_Recog_Nov10,2022.2.2,MacIntel,120.0048002,,,,,,,,,,,,,,,target,test,,,,,,,,,,,,,,,,,,,,,,,,,,,,,,,,,,,,,,3,,,,n,0,0.8539,,0,4,4,1,1,stimuli/scene/beach_V1.jpg,b,2,,,
,,841215,1,Young,2023-11-18_21h06.25.482,Scene_Recog_Nov10,2022.2.2,MacIntel,120.0048002,,,,,,,,,,,,,,,target,test,,,,,,,,,,,,,,,,,,,,,,,,,,,,,,,,,,,,,,3,,,,b,1,1.3362,r,0,5,5,4,1,stimuli/scene/buffet_V2.jpg,b,5,0.4237,,
,,841215,1,Young,2023-11-18_21h06.25.482,Scene_Recog_Nov10,2022.2.2,MacIntel,120.0048002,,,,,,,,,,,,,,,lure,study,,,,,,,,,,,,,,,,,,,,,,,,,,space,0.9205,i,1,0.8258,0,0,0,5,1,stimuli/scene/butcher_V2.jpg,i,1,6,,,,,,,,,,,,,,,,,
,,841215,1,Young,2023-11-18_21h06.25.482,Scene_Recog_Nov10,2022.2.2,MacIntel,120.0048002,,,,,,,,,,,,,,,foil,study,,,,,,,,,,,,,,,,,,,,,,,,,,,,o,1,0.5623,0,1,1,3,1,stimuli/scene/bridge_V2.jpg,o,1,4,,,,,,,,,,,,,,,,,
,,841215,1,Young,2023-11-18_21h06.25.482,Scene_Recog_Nov10,2022.2.2,MacIntel,120.0048002,,,,,,,,,,,,,,,lure,study,,,,,,,,,,,,,,,,,,,,,,,,,,,,o,1,0.9945,0,2,2,0,1,stimuli/scene/barn_V2.jpg,o,1,1,,,,,,,,,,,,,,,,,
,,841215,1,Young,2023-11-18_21h06.25.482,Scene_Recog_Nov10,2022.2.2,MacIntel,120.0048002,,,,,,,,,,,,,,,target,study,,,,,,,,,,,,,,,,,,,,,,,,,,,,o,1,0.8525,0,3,3,1,1,stimuli/scene/beach_V1.jpg,o,1,2,,,,,,,,,,,,,,,,,
,,841215,1,Young,2023-11-18_21h06.25.482,Scene_Recog_Nov10,2022.2.2,MacIntel,120.0048002,,,,,,,,,,,,,,,foil,study,,,,,,,,,,,,,,,,,,,,,,,,,,,,i,1,0.8357,0,4,4,2,1,stimuli/scene/bed_V2.jpg,i,1,3,,,,,,,,,,,,,,,,,
,,841215,1,Young,2023-11-18_21h06.25.482,Scene_Recog_Nov10,2022.2.2,MacIntel,120.0048002,,,,,,,,,,,,,,,target,study,,,,,,,,,,,,,,,,,,,,,,,,,,,,i,1,1.7066,0,5,5,4,1,stimuli/scene/buffet_V2.jpg,i,1,5,,,,,,,,,,,,,,,,,
,,841215,1,Young,2023-11-18_21h06.25.482,Scene_Recog_Nov10,2022.2.2,MacIntel,120.0048002,,,,,,,,,,,,,,,target,test,,,,,,,,,,,,,,,,,,,,,,,,,,,,,,,,,,,,,,1,,space,0.912,b,1,2.8203,r,0,0,0,4,1,stimuli/scene/buffet_V2.jpg,b,5,0.5896,,
,,841215,1,Young,2023-11-18_21h06.25.482,Scene_Recog_Nov10,2022.2.2,MacIntel,120.0048002,,,,,,,,,,,,,,,lure,test,,,,,,,,,,,,,,,,,,,,,,,,,,,,,,,,,,,,,,1,,,,n,1,1.0911,,0,1,1,5,1,stimuli/scene/butcher_V1.jpg,n,6,,,
,,841215,1,Young,2023-11-18_21h06.25.482,Scene_Recog_Nov10,2022.2.2,MacIntel,120.0048002,,,,,,,,,,,,,,,target,test,,,,,,,,,,,,,,,,,,,,,,,,,,,,,,,,,,,,,,1,,,,b,1,1.8283,r,0,2,2,1,1,stimuli/scene/beach_V1.jpg,b,2,0.3085,,
,,841215,1,Young,2023-11-18_21h06.25.482,Scene_Recog_Nov10,2022.2.2,MacIntel,120.0048002,,,,,,,,,,,,,,,foil,test,,,,,,,,,,,,,,,,,,,,,,,,,,,,,,,,,,,,,,1,,,,n,1,1.571,,0,3,3,3,1,stimuli/scene/cactus_V2.jpg,n,4,,,
,,841215,1,Young,2023-11-18_21h06.25.482,Scene_Recog_Nov10,2022.2.2,MacIntel,120.0048002,,,,,,,,,,,,,,,lure,test,,,,,,,,,,,,,,,,,,,,,,,,,,,,,,,,,,,,,,1,,,,b,0,2.2515,k,0,4,4,0,1,stimuli/scene/barn_V1.jpg,n,1,1.1772,,
,,841215,1,Young,2023-11-18_21h06.25.482,Scene_Recog_Nov10,2022.2.2,MacIntel,120.0048002,,,,,,,,,,,,,,,foil,test,,,,,,,,,,,,,,,,,,,,,,,,,,,,,,,,,,,,,,1,,,,n,1,0.7827,,0,5,5,2,1,stimuli/scene/cattlefarm_V2.jpg,n,3,,,
,,841215,1,Young,2023-11-18_21h06.25.482,Scene_Recog_Nov10,2022.2.2,MacIntel,120.0048002,,,,,,,,,,,,,,,target,study,,,,,,,,,,,,,,,,,,,,,,,,,,space,0.901,o,1,1.3571,0,0,0,1,1,stimuli/scene/beach_V1.jpg,o,2,2,,,,,,,,,,,,,,,,,
,,841215,1,Young,2023-11-18_21h06.25.482,Scene_Recog_Nov10,2022.2.2,MacIntel,120.0048002,,,,,,,,,,,,,,,lure,study,,,,,,,,,,,,,,,,,,,,,,,,,,,,i,1,0.6002,0,1,1,5,1,stimuli/scene/butcher_V2.jpg,i,2,6,,,,,,,,,,,,,,,,,
,,841215,1,Young,2023-11-18_21h06.25.482,Scene_Recog_Nov10,2022.2.2,MacIntel,120.0048002,,,,,,,,,,,,,,,foil,study,,,,,,,,,,,,,,,,,,,,,,,,,,,,o,1,0.7025,0,2,2,3,1,stimuli/scene/bridge_V2.jpg,o,2,4,,,,,,,,,,,,,,,,,
,,841215,1,Young,2023-11-18_21h06.25.482,Scene_Recog_Nov10,2022.2.2,MacIntel,120.0048002,,,,,,,,,,,,,,,foil,study,,,,,,,,,,,,,,,,,,,,,,,,,,,,i,1,0.7009,0,3,3,2,1,stimuli/scene/bed_V2.jpg,i,2,3,,,,,,,,,,,,,,,,,
,,841215,1,Young,2023-11-18_21h06.25.482,Scene_Recog_Nov10,2022.2.2,MacIntel,120.0048002,,,,,,,,,,,,,,,lure,study,,,,,,,,,,,,,,,,,,,,,,,,,,,,o,1,0.9264,0,4,4,0,1,stimuli/scene/barn_V2.jpg,o,2,1,,,,,,,,,,,,,,,,,
,,841215,1,Young,2023-11-18_21h06.25.482,Scene_Recog_Nov10,2022.2.2,MacIntel,120.0048002,,,,,,,,,,,,,,,target,study,,,,,,,,,,,,,,,,,,,,,,,,,,,,i,1,1.1901,0,5,5,4,1,stimuli/scene/buffet_V2.jpg,i,2,5,,,,,,,,,,,,,,,,,
,,841215,1,Young,2023-11-18_21h06.25.482,Scene_Recog_Nov10,2022.2.2,MacIntel,120.0048002,,,,,,,,,,,,,,,lure,test,,,,,,,,,,,,,,,,,,,,,,,,,,,,,,,,,,,,,,2,,space,0.7459,b,0,2.8056,k,0,0,0,5,1,stimuli/scene/butcher_V1.jpg,n,6,0.7645,,
,,841215,1,Young,2023-11-18_21h06.25.482,Scene_Recog_Nov10,2022.2.2,MacIntel,120.0048002,,,,,,,,,,,,,,,foil,test,,,,,,,,,,,,,,,,,,,,,,,,,,,,,,,,,,,,,,2,,,,n,1,2.5301,,0,1,1,2,1,stimuli/scene/cattlefarm_V2.jpg,n,3,,,
,,841215,1,Young,2023-11-18_21h06.25.482,Scene_Recog_Nov10,2022.2.2,MacIntel,120.0048002,,,,,,,,,,,,,,,foil,test,,,,,,,,,,,,,,,,,,,,,,,,,,,,,,,,,,,,,,2,,,,n,1,0.4499,,0,2,2,3,1,stimuli/scene/cactus_V2.jpg,n,4,,,
,,841215,1,Young,2023-11-18_21h06.25.482,Scene_Recog_Nov10,2022.2.2,MacIntel,120.0048002,,,,,,,,,,,,,,,target,test,,,,,,,,,,,,,,,,,,,,,,,,,,,,,,,,,,,,,,2,,,,b,1,0.6343,r,0,3,3,4,1,stimuli/scene/buffet_V2.jpg,b,5,0.5245,,
,,841215,1,Young,2023-11-18_21h06.25.482,Scene_Recog_Nov10,2022.2.2,MacIntel,120.0048002,,,,,,,,,,,,,,,lure,test,,,,,,,,,,,,,,,,,,,,,,,,,,,,,,,,,,,,,,2,,,,n,1,2.4976,,0,4,4,0,1,stimuli/scene/barn_V1.jpg,n,1,,,
,,841215,1,Young,2023-11-18_21h06.25.482,Scene_Recog_Nov10,2022.2.2,MacIntel,120.0048002,,,,,,,,,,,,,,,target,test,,,,,,,,,,,,,,,,,,,,,,,,,,,,,,,,,,,,,,2,,,,b,1,1.0566,r,0,5,5,1,1,stimuli/scene/beach_V1.jpg,b,2,0.7634,,
,,841215,1,Young,2023-11-18_21h06.25.482,Scene_Recog_Nov10,2022.2.2,MacIntel,120.0048002,,,,,,,,,,,,,,,,,,,,,,,,,,,,,,,,,,,,,,,,,,,,,,,,,,,,,,,,,,,,,,,,,,,,,,,space,0.8026